File: Physics/XRD/S22m.dat
       q_A^-1             I
  1.093235e-02    1.041486e+06
  2.369400e-02    1.039639e+06
  3.645566e-02    7.659840e+05
  4.921731e-02    3.788125e+05
  6.197897e-02    2.000346e+05
  7.474062e-02    6.795956e+04
  8.750227e-02    5.626727e+04
  1.002639e-01    3.538859e+04
  1.130256e-01    1.947749e+04
  1.257872e-01    1.094623e+04
  1.385489e-01    9.296874e+03
  1.513105e-01    8.084621e+03
  1.640722e-01    6.260874e+03
  1.768338e-01    5.230916e+03
  1.895955e-01    4.669809e+03
  2.023572e-01    4.838955e+03
  2.151188e-01    3.474411e+03
  2.278805e-01    2.616259e+03
  2.406421e-01    2.165708e+03
  2.534038e-01    2.087059e+03
  2.661654e-01    1.295543e+03
  2.789271e-01    8.214662e+02
  2.916887e-01    5.651284e+02
  3.044504e-01    5.811616e+02
  3.172120e-01    3.394424e+02
  3.299737e-01    2.227423e+02
  3.427353e-01    1.477146e+02
  3.554970e-01    1.136757e+02
  3.682587e-01    8.326718e+01
  3.810203e-01    6.522224e+01
  3.937820e-01    6.200679e+01
  4.065436e-01    5.694946e+01
  4.193053e-01    5.209684e+01
  4.320669e-01    4.820681e+01
  4.448286e-01    4.427235e+01
  4.575902e-01    4.291479e+01
  4.703519e-01    4.020155e+01
  4.831135e-01    3.856840e+01
  4.958752e-01    3.577422e+01
  5.086368e-01    3.407306e+01
  5.213985e-01    3.311917e+01
  5.341601e-01    3.319307e+01
  5.469218e-01    3.078767e+01
  5.596835e-01    2.893817e+01
  5.724451e-01    2.921847e+01
  5.852068e-01    2.796958e+01
  5.979684e-01    2.793364e+01
  6.107301e-01    2.612349e+01
  6.234917e-01    2.552270e+01
  6.362534e-01    2.566199e+01
  6.490150e-01    2.370427e+01
  6.617767e-01    2.379296e+01
  6.745383e-01    2.330517e+01
  6.873000e-01    2.292687e+01
  7.000616e-01    2.318847e+01
  7.128233e-01    2.207932e+01
  7.255850e-01    2.187002e+01
  7.383466e-01    2.179552e+01
  7.511083e-01    2.196192e+01
  7.638699e-01    2.123606e+01
  7.766316e-01    2.061967e+01
  7.893932e-01    2.040609e+01
  8.021549e-01    2.000474e+01
  8.149165e-01    2.022013e+01
  8.276782e-01    1.952473e+01
  8.404398e-01    1.935857e+01
  8.532015e-01    1.888476e+01
  8.659631e-01    1.968724e+01
  8.787248e-01    1.859162e+01
  8.914865e-01    1.826291e+01
  9.042481e-01    1.815917e+01
  9.170098e-01    1.752426e+01
  9.297714e-01    1.705133e+01
  9.425331e-01    1.730836e+01
  9.552947e-01    1.693314e+01
  9.680564e-01    1.632706e+01
  9.808180e-01    1.642418e+01
  9.935797e-01    1.660608e+01
  1.006341e+00    1.643266e+01
  1.019103e+00    1.631366e+01
  1.031865e+00    1.577652e+01
  1.044626e+00    1.617888e+01
  1.057388e+00    1.534754e+01
  1.070150e+00    1.508902e+01
  1.082911e+00    1.532166e+01
  1.095673e+00    1.508840e+01
  1.108435e+00    1.475132e+01
  1.121196e+00    1.461294e+01
  1.133958e+00    1.451462e+01
  1.146720e+00    1.509263e+01
  1.159481e+00    1.425006e+01
  1.172243e+00    1.419578e+01
  1.185004e+00    1.415106e+01
  1.197766e+00    1.370479e+01
  1.210528e+00    1.423571e+01
  1.223289e+00    1.336469e+01
  1.236051e+00    1.374767e+01
  1.248813e+00    1.364901e+01
  1.261574e+00    1.351561e+01
  1.274336e+00    1.359878e+01
  1.287098e+00    1.271378e+01
  1.299859e+00    1.306972e+01
  1.312621e+00    1.328515e+01
  1.325383e+00    1.267072e+01
  1.338144e+00    1.257876e+01
  1.350906e+00    1.284739e+01
  1.363668e+00    1.256796e+01
  1.376429e+00    1.237564e+01
  1.389191e+00    1.235352e+01
  1.401953e+00    1.194119e+01
  1.414714e+00    1.237557e+01
  1.427476e+00    1.197555e+01
  1.440238e+00    1.201546e+01
  1.452999e+00    1.198539e+01
  1.465761e+00    1.195159e+01
  1.478523e+00    1.175021e+01
  1.491284e+00    1.127777e+01
  1.504046e+00    1.125878e+01
  1.516807e+00    1.111228e+01
  1.529569e+00    1.114930e+01
  1.542331e+00    1.140673e+01
  1.555092e+00    1.135418e+01
  1.567854e+00    1.087788e+01
  1.580616e+00    1.101886e+01
  1.593377e+00    1.101803e+01
  1.606139e+00    1.100850e+01
  1.618901e+00    1.077739e+01
  1.631662e+00    1.036251e+01
  1.644424e+00    1.027921e+01
  1.657186e+00    1.011394e+01
  1.669947e+00    9.913054e+00
  1.682709e+00    1.001207e+01
  1.695471e+00    1.005966e+01
  1.708232e+00    9.903006e+00
  1.720994e+00    1.000971e+01
  1.733756e+00    9.778234e+00
  1.746517e+00    9.827474e+00
  1.759279e+00    9.505630e+00
  1.772041e+00    9.512687e+00
  1.784802e+00    9.389229e+00
  1.797564e+00    9.200983e+00
  1.810326e+00    9.247554e+00
  1.823087e+00    9.317687e+00
  1.835849e+00    9.295542e+00
  1.848610e+00    9.047274e+00
  1.861372e+00    8.994718e+00
  1.874134e+00    8.964292e+00
  1.886895e+00    8.670563e+00
  1.899657e+00    8.741285e+00
  1.912419e+00    8.747794e+00
  1.925180e+00    8.579457e+00
  1.937942e+00    8.599538e+00
  1.950704e+00    8.234568e+00
  1.963465e+00    8.208969e+00
  1.976227e+00    8.109859e+00
  1.988989e+00    8.385454e+00
  2.001750e+00    8.058457e+00
  2.014512e+00    8.033182e+00
  2.027274e+00    7.963597e+00
  2.040035e+00    7.349928e+00
  2.052797e+00    7.721560e+00
  2.065559e+00    7.458296e+00
  2.078320e+00    7.578280e+00
  2.091082e+00    7.661731e+00
  2.103844e+00    7.454157e+00
  2.116605e+00    7.089721e+00
  2.129367e+00    7.012545e+00
  2.142129e+00    7.447667e+00
  2.154890e+00    7.177602e+00
  2.167652e+00    6.888687e+00
  2.180413e+00    6.800865e+00
  2.193175e+00    6.788633e+00
  2.205937e+00    6.840905e+00
  2.218698e+00    6.947406e+00
  2.231460e+00    6.678408e+00
  2.244222e+00    6.705786e+00
  2.256983e+00    6.390779e+00
  2.269745e+00    6.231106e+00
  2.282507e+00    6.467010e+00
  2.295268e+00    6.552932e+00
  2.308030e+00    6.194956e+00
  2.320792e+00    6.513391e+00
  2.333553e+00    6.457661e+00
  2.346315e+00    5.954621e+00
  2.359077e+00    6.067836e+00
  2.371838e+00    6.231059e+00
  2.384600e+00    6.014760e+00
  2.397362e+00    6.060918e+00
  2.410123e+00    6.022189e+00
  2.422885e+00    5.824172e+00
  2.435647e+00    6.012409e+00
  2.448408e+00    5.849192e+00
  2.461170e+00    6.062791e+00
  2.473931e+00    6.158020e+00
  2.486693e+00    5.875602e+00
  2.499455e+00    6.086501e+00
  2.512216e+00    5.918706e+00
  2.524978e+00    5.897025e+00
  2.537740e+00    5.734303e+00
  2.550501e+00    5.845152e+00
  2.563263e+00    5.625244e+00
  2.576025e+00    5.533099e+00
  2.588786e+00    5.610312e+00
  2.601548e+00    5.566194e+00
  2.614310e+00    5.435820e+00
  2.627071e+00    5.696290e+00
  2.639833e+00    5.611585e+00
  2.652595e+00    5.371925e+00
  2.665356e+00    5.454951e+00
  2.678118e+00    5.438645e+00
  2.690880e+00    5.287642e+00
  2.703641e+00    5.387369e+00
  2.716403e+00    5.307582e+00
  2.729165e+00    5.328955e+00
  2.741926e+00    5.277707e+00
  2.754688e+00    5.449990e+00
  2.767450e+00    5.323771e+00
  2.780211e+00    5.185410e+00
  2.792973e+00    5.351996e+00
  2.805734e+00    5.174045e+00
  2.818496e+00    5.220302e+00
  2.831258e+00    5.173446e+00
  2.844019e+00    5.187859e+00
  2.856781e+00    5.051666e+00
  2.869543e+00    5.045514e+00
  2.882304e+00    5.127388e+00
  2.895066e+00    5.036690e+00
  2.907828e+00    5.115554e+00
  2.920589e+00    5.108271e+00
  2.933351e+00    5.212454e+00
  2.946113e+00    5.125541e+00
  2.958874e+00    5.155542e+00
  2.971636e+00    5.116532e+00
  2.984398e+00    5.207671e+00
  2.997159e+00    5.394487e+00
  3.009921e+00    5.379326e+00
  3.022683e+00    5.697763e+00
  3.035444e+00    6.997208e+00
  3.048206e+00    1.021082e+01
  3.060968e+00    1.189249e+01
  3.073729e+00    1.204044e+01
  3.086491e+00    9.930575e+00
  3.099253e+00    7.463548e+00
  3.112014e+00    5.928334e+00
  3.124776e+00    5.337955e+00
  3.137537e+00    5.168200e+00
  3.150299e+00    4.886367e+00
  3.163061e+00    4.725461e+00
  3.175822e+00    4.771571e+00
  3.188584e+00    4.872952e+00
  3.201346e+00    4.555545e+00
  3.214107e+00    4.618866e+00
  3.226869e+00    4.784528e+00
  3.239631e+00    4.714265e+00
  3.252392e+00    4.648495e+00
  3.265154e+00    4.580893e+00
  3.277916e+00    4.487811e+00
  3.290677e+00    4.561950e+00
  3.303439e+00    4.468782e+00
  3.316201e+00    4.394523e+00
  3.328962e+00    4.228308e+00
  3.341724e+00    4.463856e+00
  3.354486e+00    4.380038e+00
  3.367247e+00    4.230114e+00
  3.380009e+00    4.414450e+00
  3.392771e+00    4.333763e+00
  3.405532e+00    4.225890e+00
  3.418294e+00    4.482624e+00
  3.431056e+00    4.342920e+00
  3.443817e+00    4.294071e+00
  3.456579e+00    4.185664e+00
  3.469340e+00    4.202498e+00
  3.482102e+00    4.226456e+00
  3.494864e+00    4.235134e+00
  3.507625e+00    4.186874e+00
  3.520387e+00    4.036370e+00
  3.533149e+00    4.141647e+00
  3.545910e+00    4.167700e+00
  3.558672e+00    4.190501e+00
  3.571434e+00    4.098564e+00
  3.584195e+00    3.993151e+00
  3.596957e+00    4.089840e+00
  3.609719e+00    4.098041e+00
  3.622480e+00    4.099118e+00
  3.635242e+00    4.135969e+00
  3.648004e+00    4.193249e+00
  3.660765e+00    4.124567e+00
  3.673527e+00    4.031401e+00
  3.686289e+00    3.946419e+00
  3.699050e+00    3.944216e+00
  3.711812e+00    4.025722e+00
  3.724574e+00    4.053485e+00
  3.737335e+00    3.949813e+00
  3.750097e+00    4.020301e+00
  3.762859e+00    3.879861e+00
  3.775620e+00    4.012926e+00
  3.788382e+00    3.869087e+00
  3.801143e+00    3.814765e+00
  3.813905e+00    3.865917e+00
  3.826667e+00    3.989511e+00
  3.839428e+00    3.990898e+00
  3.852190e+00    3.865187e+00
  3.864952e+00    3.729491e+00
  3.877713e+00    3.958196e+00
  3.890475e+00    3.796587e+00
  3.903237e+00    3.900414e+00
  3.915998e+00    3.632107e+00
  3.928760e+00    3.675009e+00
  3.941522e+00    3.695890e+00
  3.954283e+00    3.801906e+00
  3.967045e+00    3.689132e+00
  3.979807e+00    3.815895e+00
  3.992568e+00    3.688888e+00
  4.005330e+00    3.540112e+00
  4.018092e+00    3.622636e+00
  4.030853e+00    3.607672e+00
  4.043615e+00    3.542725e+00
  4.056377e+00    3.743518e+00
  4.069138e+00    3.553451e+00
  4.081900e+00    3.576039e+00
  4.094662e+00    3.608676e+00
  4.107423e+00    3.585135e+00
  4.120185e+00    3.700227e+00
  4.132946e+00    3.560730e+00
  4.145708e+00    3.713815e+00
  4.158470e+00    3.627709e+00
  4.171231e+00    3.872161e+00
  4.183993e+00    3.773290e+00
  4.196755e+00    3.582405e+00
  4.209516e+00    3.575243e+00
  4.222278e+00    3.710765e+00
  4.235040e+00    3.741371e+00
  4.247801e+00    3.618484e+00
  4.260563e+00    3.702631e+00
  4.273325e+00    3.615656e+00
  4.286086e+00    3.632406e+00
  4.298848e+00    3.728620e+00
  4.311610e+00    4.048309e+00
  4.324371e+00    4.290457e+00
  4.337133e+00    4.374782e+00
  4.349895e+00    4.314027e+00
  4.362656e+00    4.190975e+00
  4.375418e+00    3.678386e+00
  4.388180e+00    3.530555e+00
  4.400941e+00    3.436323e+00
  4.413703e+00    3.467327e+00
  4.426465e+00    3.236542e+00
  4.439226e+00    3.509200e+00
  4.451988e+00    3.336676e+00
  4.464749e+00    3.318592e+00
  4.477511e+00    3.529698e+00
  4.490273e+00    3.372139e+00
  4.503034e+00    3.375934e+00
  4.515796e+00    3.308866e+00
  4.528558e+00    3.144681e+00
  4.541319e+00    3.387969e+00
  4.554081e+00    3.292476e+00
  4.566843e+00    3.457888e+00
  4.579604e+00    3.285084e+00
  4.592366e+00    3.244385e+00
  4.605128e+00    3.286734e+00
  4.617889e+00    3.107714e+00
  4.630651e+00    3.090194e+00
  4.643413e+00    3.293074e+00
  4.656174e+00    3.203348e+00
  4.668936e+00    3.200877e+00
  4.681698e+00    3.376739e+00
  4.694459e+00    3.321865e+00
  4.707221e+00    3.338282e+00
  4.719983e+00    3.274927e+00
  4.732744e+00    3.199337e+00
  4.745506e+00    3.351405e+00
  4.758267e+00    3.142842e+00
  4.771029e+00    3.295844e+00
  4.783791e+00    3.249079e+00
  4.796552e+00    3.167997e+00
  4.809314e+00    3.146219e+00
  4.822076e+00    3.143625e+00
  4.834837e+00    3.124309e+00
  4.847599e+00    3.058128e+00
  4.860361e+00    3.077971e+00
  4.873122e+00    3.224335e+00
  4.885884e+00    3.066140e+00
  4.898646e+00    3.134267e+00
  4.911407e+00    3.108371e+00
  4.924169e+00    3.089477e+00
  4.936931e+00    3.104412e+00
  4.949692e+00    2.997950e+00
  4.962454e+00    3.010406e+00
  4.975216e+00    3.080409e+00
  4.987977e+00    3.023694e+00
  5.000739e+00    3.077682e+00
  5.013501e+00    2.956336e+00
  5.026262e+00    3.051100e+00
  5.039024e+00    3.068623e+00
  5.051786e+00    2.969265e+00
  5.064547e+00    3.076557e+00
  5.077309e+00    2.923673e+00
  5.090070e+00    2.925102e+00
  5.102832e+00    2.962042e+00
  5.115594e+00    3.021974e+00
  5.128355e+00    2.944930e+00
  5.141117e+00    2.855751e+00
  5.153879e+00    2.934127e+00
  5.166640e+00    3.071239e+00
  5.179402e+00    2.910320e+00
  5.192164e+00    2.971208e+00
  5.204925e+00    2.956452e+00
  5.217687e+00    2.944274e+00
  5.230449e+00    3.066879e+00
  5.243210e+00    2.978081e+00
  5.255972e+00    2.980922e+00
  5.268734e+00    2.942060e+00
  5.281495e+00    3.545928e+00
  5.294257e+00    4.070002e+00
  5.307019e+00    4.463500e+00
  5.319780e+00    4.593606e+00
  5.332542e+00    4.110607e+00
  5.345304e+00    3.684947e+00
  5.358065e+00    3.424705e+00
  5.370827e+00    3.191427e+00
  5.383589e+00    2.834734e+00
  5.396350e+00    2.722037e+00
  5.409112e+00    2.814267e+00
  5.421873e+00    2.769690e+00
  5.434635e+00    2.849207e+00
  5.447397e+00    2.718894e+00
  5.460158e+00    2.631814e+00
  5.472920e+00    2.703373e+00
  5.485682e+00    2.680545e+00
  5.498443e+00    2.650197e+00
  5.511205e+00    2.555666e+00
  5.523967e+00    2.670476e+00
  5.536728e+00    2.574253e+00
  5.549490e+00    2.538471e+00
  5.562252e+00    2.712220e+00
  5.575013e+00    2.659289e+00
  5.587775e+00    2.688912e+00
  5.600537e+00    2.817764e+00
  5.613298e+00    2.646785e+00
  5.626060e+00    2.541692e+00
  5.638822e+00    2.693163e+00
  5.651583e+00    2.651161e+00
  5.664345e+00    2.651367e+00
  5.677107e+00    2.527850e+00
  5.689868e+00    2.669062e+00
  5.702630e+00    2.554163e+00
  5.715392e+00    2.577848e+00
  5.728153e+00    2.682297e+00
  5.740915e+00    2.647177e+00
  5.753676e+00    2.597156e+00
  5.766438e+00    2.643904e+00
  5.779200e+00    2.703221e+00
  5.791961e+00    2.697498e+00
  5.804723e+00    2.570484e+00
  5.817485e+00    2.449373e+00
  5.830246e+00    2.524548e+00
  5.843008e+00    2.443754e+00
  5.855770e+00    2.507420e+00
  5.868531e+00    2.477893e+00
  5.881293e+00    2.456417e+00
  5.894055e+00    2.456275e+00
  5.906816e+00    2.446221e+00
  5.919578e+00    2.733764e+00
  5.932340e+00    2.366882e+00
  5.945101e+00    2.598302e+00
  5.957863e+00    2.421506e+00
  5.970625e+00    2.530700e+00
  5.983386e+00    2.605909e+00
  5.996148e+00    2.361363e+00
  6.008910e+00    2.557434e+00
  6.021671e+00    2.375428e+00
  6.034433e+00    2.482491e+00
  6.047195e+00    2.367589e+00
  6.059956e+00    2.492275e+00
  6.072718e+00    2.734737e+00
  6.085479e+00    2.384830e+00
  6.098241e+00    2.434737e+00
  6.111003e+00    2.992307e+00
  6.123764e+00    2.786394e+00
  6.136526e+00    3.027776e+00
  6.149288e+00    2.948376e+00
  6.162049e+00    2.934794e+00
  6.174811e+00    2.605853e+00
  6.187573e+00    2.402015e+00
  6.200334e+00    2.186165e+00
  6.213096e+00    2.297848e+00
  6.225858e+00    2.348282e+00
  6.238619e+00    2.287203e+00
  6.251381e+00    2.699479e+00
  6.264143e+00    2.658879e+00
  6.276904e+00    1.930476e+00
  6.289666e+00    2.685597e+00
  6.302428e+00    2.470597e+00
  6.315189e+00    2.840363e+00
  6.327951e+00    2.290571e+00
  6.340713e+00    2.309501e+00
  6.353474e+00    2.781139e+00
  6.366236e+00    2.037036e+00
  6.378998e+00    4.996594e-01