File: Physics/XRD/S25m.dat
      q_A^-1             I
  1.093235e-02    1.039487e+06
  2.369400e-02    1.037645e+06
  3.645566e-02    8.626468e+05
  4.921731e-02    4.637271e+05
  6.197897e-02    3.537673e+05
  7.474062e-02    1.692519e+05
  8.750227e-02    1.406591e+05
  1.002639e-01    8.840516e+04
  1.130256e-01    4.864715e+04
  1.257872e-01    2.737707e+04
  1.385489e-01    2.328185e+04
  1.513105e-01    2.027442e+04
  1.640722e-01    1.571454e+04
  1.768338e-01    1.311536e+04
  1.895955e-01    1.163411e+04
  2.023572e-01    1.211579e+04
  2.151188e-01    8.722849e+03
  2.278805e-01    6.523792e+03
  2.406421e-01    5.395396e+03
  2.534038e-01    5.245854e+03
  2.661654e-01    3.247636e+03
  2.789271e-01    2.065181e+03
  2.916887e-01    1.416322e+03
  3.044504e-01    1.451037e+03
  3.172120e-01    8.568373e+02
  3.299737e-01    5.635255e+02
  3.427353e-01    3.760553e+02
  3.554970e-01    2.852461e+02
  3.682587e-01    2.124819e+02
  3.810203e-01    1.663861e+02
  3.937820e-01    1.524105e+02
  4.065436e-01    1.457184e+02
  4.193053e-01    1.306341e+02
  4.320669e-01    1.202394e+02
  4.448286e-01    1.097134e+02
  4.575902e-01    1.046610e+02
  4.703519e-01    1.001036e+02
  4.831135e-01    9.579268e+01
  4.958752e-01    9.192010e+01
  5.086368e-01    8.582381e+01
  5.213985e-01    8.248935e+01
  5.341601e-01    8.112067e+01
  5.469218e-01    7.625661e+01
  5.596835e-01    7.479153e+01
  5.724451e-01    7.210317e+01
  5.852068e-01    7.063092e+01
  5.979684e-01    6.869106e+01
  6.107301e-01    6.548978e+01
  6.234917e-01    6.325600e+01
  6.362534e-01    6.269039e+01
  6.490150e-01    6.035358e+01
  6.617767e-01    6.049602e+01
  6.745383e-01    5.721375e+01
  6.873000e-01    5.714867e+01
  7.000616e-01    5.646203e+01
  7.128233e-01    5.547593e+01
  7.255850e-01    5.526379e+01
  7.383466e-01    5.417764e+01
  7.511083e-01    5.331180e+01
  7.638699e-01    5.191510e+01
  7.766316e-01    5.252838e+01
  7.893932e-01    5.142678e+01
  8.021549e-01    4.992582e+01
  8.149165e-01    4.974416e+01
  8.276782e-01    4.903324e+01
  8.404398e-01    4.819255e+01
  8.532015e-01    4.782880e+01
  8.659631e-01    4.729140e+01
  8.787248e-01    4.611415e+01
  8.914865e-01    4.533612e+01
  9.042481e-01    4.519987e+01
  9.170098e-01    4.366279e+01
  9.297714e-01    4.288232e+01
  9.425331e-01    4.343152e+01
  9.552947e-01    4.236345e+01
  9.680564e-01    4.213441e+01
  9.808180e-01    4.094550e+01
  9.935797e-01    4.133673e+01
  1.006341e+00    4.117535e+01
  1.019103e+00    4.082232e+01
  1.031865e+00    4.027430e+01
  1.044626e+00    3.957257e+01
  1.057388e+00    3.946814e+01
  1.070150e+00    3.855460e+01
  1.082911e+00    3.897044e+01
  1.095673e+00    3.756282e+01
  1.108435e+00    3.758461e+01
  1.121196e+00    3.750396e+01
  1.133958e+00    3.765095e+01
  1.146720e+00    3.721110e+01
  1.159481e+00    3.551538e+01
  1.172243e+00    3.717451e+01
  1.185004e+00    3.594416e+01
  1.197766e+00    3.519236e+01
  1.210528e+00    3.583366e+01
  1.223289e+00    3.413634e+01
  1.236051e+00    3.382051e+01
  1.248813e+00    3.389867e+01
  1.261574e+00    3.323452e+01
  1.274336e+00    3.308062e+01
  1.287098e+00    3.320231e+01
  1.299859e+00    3.299766e+01
  1.312621e+00    3.200516e+01
  1.325383e+00    3.301017e+01
  1.338144e+00    3.107417e+01
  1.350906e+00    3.127239e+01
  1.363668e+00    3.058173e+01
  1.376429e+00    3.110119e+01
  1.389191e+00    3.079300e+01
  1.401953e+00    3.032404e+01
  1.414714e+00    2.951118e+01
  1.427476e+00    3.035585e+01
  1.440238e+00    3.002571e+01
  1.452999e+00    2.953967e+01
  1.465761e+00    2.976929e+01
  1.478523e+00    2.894340e+01
  1.491284e+00    2.848430e+01
  1.504046e+00    2.873789e+01
  1.516807e+00    2.835610e+01
  1.529569e+00    2.814748e+01
  1.542331e+00    2.823402e+01
  1.555092e+00    2.720803e+01
  1.567854e+00    2.738437e+01
  1.580616e+00    2.716225e+01
  1.593377e+00    2.583941e+01
  1.606139e+00    2.685490e+01
  1.618901e+00    2.592639e+01
  1.631662e+00    2.607389e+01
  1.644424e+00    2.567143e+01
  1.657186e+00    2.542209e+01
  1.669947e+00    2.539738e+01
  1.682709e+00    2.496473e+01
  1.695471e+00    2.461166e+01
  1.708232e+00    2.476221e+01
  1.720994e+00    2.460750e+01
  1.733756e+00    2.395808e+01
  1.746517e+00    2.436975e+01
  1.759279e+00    2.371725e+01
  1.772041e+00    2.363505e+01
  1.784802e+00    2.361931e+01
  1.797564e+00    2.331534e+01
  1.810326e+00    2.347383e+01
  1.823087e+00    2.312156e+01
  1.835849e+00    2.302660e+01
  1.848610e+00    2.244968e+01
  1.861372e+00    2.262850e+01
  1.874134e+00    2.266022e+01
  1.886895e+00    2.198314e+01
  1.899657e+00    2.178823e+01
  1.912419e+00    2.152834e+01
  1.925180e+00    2.105911e+01
  1.937942e+00    2.106030e+01
  1.950704e+00    2.077975e+01
  1.963465e+00    2.075435e+01
  1.976227e+00    2.059097e+01
  1.988989e+00    2.067662e+01
  2.001750e+00    2.011323e+01
  2.014512e+00    1.951145e+01
  2.027274e+00    1.941638e+01
  2.040035e+00    1.996848e+01
  2.052797e+00    1.910000e+01
  2.065559e+00    1.867619e+01
  2.078320e+00    1.929135e+01
  2.091082e+00    1.907292e+01
  2.103844e+00    1.820432e+01
  2.116605e+00    1.830446e+01
  2.129367e+00    1.795289e+01
  2.142129e+00    1.778134e+01
  2.154890e+00    1.759677e+01
  2.167652e+00    1.754948e+01
  2.180413e+00    1.742698e+01
  2.193175e+00    1.721611e+01
  2.205937e+00    1.663000e+01
  2.218698e+00    1.678496e+01
  2.231460e+00    1.665569e+01
  2.244222e+00    1.671929e+01
  2.256983e+00    1.633632e+01
  2.269745e+00    1.668686e+01
  2.282507e+00    1.618161e+01
  2.295268e+00    1.617854e+01
  2.308030e+00    1.619691e+01
  2.320792e+00    1.529645e+01
  2.333553e+00    1.581912e+01
  2.346315e+00    1.546857e+01
  2.359077e+00    1.554660e+01
  2.371838e+00    1.537395e+01
  2.384600e+00    1.503841e+01
  2.397362e+00    1.530951e+01
  2.410123e+00    1.538825e+01
  2.422885e+00    1.538973e+01
  2.435647e+00    1.519510e+01
  2.448408e+00    1.556001e+01
  2.461170e+00    1.516471e+01
  2.473931e+00    1.517399e+01
  2.486693e+00    1.481318e+01
  2.499455e+00    1.457446e+01
  2.512216e+00    1.449390e+01
  2.524978e+00    1.443935e+01
  2.537740e+00    1.439561e+01
  2.550501e+00    1.437548e+01
  2.563263e+00    1.411114e+01
  2.576025e+00    1.410141e+01
  2.588786e+00    1.389154e+01
  2.601548e+00    1.404214e+01
  2.614310e+00    1.421459e+01
  2.627071e+00    1.361441e+01
  2.639833e+00    1.350659e+01
  2.652595e+00    1.382314e+01
  2.665356e+00    1.360586e+01
  2.678118e+00    1.353562e+01
  2.690880e+00    1.332110e+01
  2.703641e+00    1.333892e+01
  2.716403e+00    1.333305e+01
  2.729165e+00    1.369804e+01
  2.741926e+00    1.347476e+01
  2.754688e+00    1.321089e+01
  2.767450e+00    1.310614e+01
  2.780211e+00    1.345336e+01
  2.792973e+00    1.347998e+01
  2.805734e+00    1.300282e+01
  2.818496e+00    1.298928e+01
  2.831258e+00    1.304973e+01
  2.844019e+00    1.264987e+01
  2.856781e+00    1.271463e+01
  2.869543e+00    1.272403e+01
  2.882304e+00    1.298833e+01
  2.895066e+00    1.297103e+01
  2.907828e+00    1.275434e+01
  2.920589e+00    1.286088e+01
  2.933351e+00    1.284617e+01
  2.946113e+00    1.276358e+01
  2.958874e+00    1.311100e+01
  2.971636e+00    1.303149e+01
  2.984398e+00    1.280712e+01
  2.997159e+00    1.307920e+01
  3.009921e+00    1.337553e+01
  3.022683e+00    1.470655e+01
  3.035444e+00    1.775417e+01
  3.048206e+00    2.545820e+01
  3.060968e+00    2.943673e+01
  3.073729e+00    3.012327e+01
  3.086491e+00    2.461085e+01
  3.099253e+00    1.904608e+01
  3.112014e+00    1.454945e+01
  3.124776e+00    1.297014e+01
  3.137537e+00    1.211016e+01
  3.150299e+00    1.212838e+01
  3.163061e+00    1.173456e+01
  3.175822e+00    1.189930e+01
  3.188584e+00    1.162002e+01
  3.201346e+00    1.158660e+01
  3.214107e+00    1.175879e+01
  3.226869e+00    1.156449e+01
  3.239631e+00    1.135441e+01
  3.252392e+00    1.151374e+01
  3.265154e+00    1.137121e+01
  3.277916e+00    1.124431e+01
  3.290677e+00    1.106077e+01
  3.303439e+00    1.122602e+01
  3.316201e+00    1.118456e+01
  3.328962e+00    1.093519e+01
  3.341724e+00    1.088220e+01
  3.354486e+00    1.087155e+01
  3.367247e+00    1.106535e+01
  3.380009e+00    1.163474e+01
  3.392771e+00    1.079146e+01
  3.405532e+00    1.094032e+01
  3.418294e+00    1.085631e+01
  3.431056e+00    1.086907e+01
  3.443817e+00    1.078434e+01
  3.456579e+00    1.081986e+01
  3.469340e+00    1.034157e+01
  3.482102e+00    1.064825e+01
  3.494864e+00    1.047746e+01
  3.507625e+00    1.066419e+01
  3.520387e+00    1.055868e+01
  3.533149e+00    1.045444e+01
  3.545910e+00    1.056116e+01
  3.558672e+00    1.050556e+01
  3.571434e+00    1.036141e+01
  3.584195e+00    9.905425e+00
  3.596957e+00    1.004116e+01
  3.609719e+00    9.949288e+00
  3.622480e+00    1.023563e+01
  3.635242e+00    1.017345e+01
  3.648004e+00    1.013941e+01
  3.660765e+00    9.912291e+00
  3.673527e+00    1.018550e+01
  3.686289e+00    9.969993e+00
  3.699050e+00    9.905801e+00
  3.711812e+00    1.005130e+01
  3.724574e+00    1.001225e+01
  3.737335e+00    9.819605e+00
  3.750097e+00    9.864873e+00
  3.762859e+00    9.716213e+00
  3.775620e+00    9.689592e+00
  3.788382e+00    9.886282e+00
  3.801143e+00    9.743518e+00
  3.813905e+00    9.826212e+00
  3.826667e+00    9.813462e+00
  3.839428e+00    9.722069e+00
  3.852190e+00    9.724385e+00
  3.864952e+00    9.594783e+00
  3.877713e+00    9.747879e+00
  3.890475e+00    9.605025e+00
  3.903237e+00    9.498345e+00
  3.915998e+00    9.451052e+00
  3.928760e+00    9.697629e+00
  3.941522e+00    9.385552e+00
  3.954283e+00    9.266605e+00
  3.967045e+00    9.233549e+00
  3.979807e+00    9.244703e+00
  3.992568e+00    9.298031e+00
  4.005330e+00    9.169524e+00
  4.018092e+00    9.624932e+00
  4.030853e+00    9.328313e+00
  4.043615e+00    9.290699e+00
  4.056377e+00    9.216516e+00
  4.069138e+00    9.049372e+00
  4.081900e+00    9.287868e+00
  4.094662e+00    9.280742e+00
  4.107423e+00    8.880579e+00
  4.120185e+00    9.033175e+00
  4.132946e+00    9.116678e+00
  4.145708e+00    9.208353e+00
  4.158470e+00    9.158018e+00
  4.171231e+00    9.236289e+00
  4.183993e+00    9.158067e+00
  4.196755e+00    9.062316e+00
  4.209516e+00    9.146331e+00
  4.222278e+00    9.123285e+00
  4.235040e+00    9.056194e+00
  4.247801e+00    8.932636e+00
  4.260563e+00    8.851957e+00
  4.273325e+00    8.875051e+00
  4.286086e+00    8.901652e+00
  4.298848e+00    9.366964e+00
  4.311610e+00    1.001299e+01
  4.324371e+00    1.085073e+01
  4.337133e+00    1.088863e+01
  4.349895e+00    1.096181e+01
  4.362656e+00    1.000522e+01
  4.375418e+00    9.433408e+00
  4.388180e+00    8.860845e+00
  4.400941e+00    8.675395e+00
  4.413703e+00    8.579170e+00
  4.426465e+00    8.429887e+00
  4.439226e+00    8.395919e+00
  4.451988e+00    8.554491e+00
  4.464749e+00    8.507182e+00
  4.477511e+00    8.345137e+00
  4.490273e+00    8.434257e+00
  4.503034e+00    8.450876e+00
  4.515796e+00    8.271407e+00
  4.528558e+00    8.257800e+00
  4.541319e+00    8.137031e+00
  4.554081e+00    8.320170e+00
  4.566843e+00    8.325847e+00
  4.579604e+00    8.317157e+00
  4.592366e+00    8.238663e+00
  4.605128e+00    8.192499e+00
  4.617889e+00    7.987368e+00
  4.630651e+00    8.132209e+00
  4.643413e+00    8.124219e+00
  4.656174e+00    7.943493e+00
  4.668936e+00    8.118367e+00
  4.681698e+00    8.050670e+00
  4.694459e+00    8.026482e+00
  4.707221e+00    7.874825e+00
  4.719983e+00    8.000540e+00
  4.732744e+00    7.993893e+00
  4.745506e+00    8.121161e+00
  4.758267e+00    7.990953e+00
  4.771029e+00    8.063712e+00
  4.783791e+00    7.962402e+00
  4.796552e+00    7.659640e+00
  4.809314e+00    7.973112e+00
  4.822076e+00    7.796916e+00
  4.834837e+00    7.918195e+00
  4.847599e+00    7.746191e+00
  4.860361e+00    7.757269e+00
  4.873122e+00    7.698598e+00
  4.885884e+00    8.055376e+00
  4.898646e+00    7.716751e+00
  4.911407e+00    7.531317e+00
  4.924169e+00    7.700954e+00
  4.936931e+00    7.730685e+00
  4.949692e+00    7.683369e+00
  4.962454e+00    7.768039e+00
  4.975216e+00    7.658376e+00
  4.987977e+00    7.428147e+00
  5.000739e+00    7.522043e+00
  5.013501e+00    7.514605e+00
  5.026262e+00    7.752104e+00
  5.039024e+00    7.316439e+00
  5.051786e+00    7.611921e+00
  5.064547e+00    7.772614e+00
  5.077309e+00    7.613850e+00
  5.090070e+00    7.349578e+00
  5.102832e+00    7.618747e+00
  5.115594e+00    7.592627e+00
  5.128355e+00    7.612129e+00
  5.141117e+00    7.296522e+00
  5.153879e+00    7.354877e+00
  5.166640e+00    7.444715e+00
  5.179402e+00    7.613684e+00
  5.192164e+00    7.288198e+00
  5.204925e+00    7.357487e+00
  5.217687e+00    7.322869e+00
  5.230449e+00    7.460804e+00
  5.243210e+00    7.537057e+00
  5.255972e+00    7.346901e+00
  5.268734e+00    7.603583e+00
  5.281495e+00    8.860382e+00
  5.294257e+00    1.022313e+01
  5.307019e+00    1.127704e+01
  5.319780e+00    1.196884e+01
  5.332542e+00    1.047139e+01
  5.345304e+00    8.939098e+00
  5.358065e+00    8.496974e+00
  5.370827e+00    7.403925e+00
  5.383589e+00    7.032291e+00
  5.396350e+00    6.946321e+00
  5.409112e+00    6.951224e+00
  5.421873e+00    6.769282e+00
  5.434635e+00    6.723471e+00
  5.447397e+00    6.825265e+00
  5.460158e+00    6.949697e+00
  5.472920e+00    6.691954e+00
  5.485682e+00    6.733287e+00
  5.498443e+00    6.501500e+00
  5.511205e+00    6.496125e+00
  5.523967e+00    6.856823e+00
  5.536728e+00    6.543351e+00
  5.549490e+00    6.678571e+00
  5.562252e+00    6.687902e+00
  5.575013e+00    6.648371e+00
  5.587775e+00    6.562743e+00
  5.600537e+00    6.595305e+00
  5.613298e+00    6.533847e+00
  5.626060e+00    6.400808e+00
  5.638822e+00    6.308692e+00
  5.651583e+00    6.374484e+00
  5.664345e+00    6.467333e+00
  5.677107e+00    6.515392e+00
  5.689868e+00    6.396659e+00
  5.702630e+00    6.531163e+00
  5.715392e+00    6.755848e+00
  5.728153e+00    6.515499e+00
  5.740915e+00    6.272012e+00
  5.753676e+00    6.320370e+00
  5.766438e+00    6.620907e+00
  5.779200e+00    6.451957e+00
  5.791961e+00    6.285076e+00
  5.804723e+00    6.244357e+00
  5.817485e+00    6.183899e+00
  5.830246e+00    6.172180e+00
  5.843008e+00    6.226456e+00
  5.855770e+00    6.160261e+00
  5.868531e+00    6.314279e+00
  5.881293e+00    5.967562e+00
  5.894055e+00    5.986879e+00
  5.906816e+00    6.269983e+00
  5.919578e+00    6.243300e+00
  5.932340e+00    6.255125e+00
  5.945101e+00    6.148450e+00
  5.957863e+00    6.485704e+00
  5.970625e+00    5.957428e+00
  5.983386e+00    6.001701e+00
  5.996148e+00    6.276036e+00
  6.008910e+00    5.969747e+00
  6.021671e+00    6.070119e+00
  6.034433e+00    5.990087e+00
  6.047195e+00    5.992093e+00
  6.059956e+00    6.185948e+00
  6.072718e+00    6.169766e+00
  6.085479e+00    6.401283e+00
  6.098241e+00    6.335245e+00
  6.111003e+00    6.412550e+00
  6.123764e+00    6.971488e+00
  6.136526e+00    6.950964e+00
  6.149288e+00    6.989536e+00
  6.162049e+00    6.683977e+00
  6.174811e+00    6.724844e+00
  6.187573e+00    6.328397e+00
  6.200334e+00    6.652425e+00
  6.213096e+00    6.064252e+00
  6.225858e+00    5.759977e+00
  6.238619e+00    5.445454e+00
  6.251381e+00    5.680556e+00
  6.264143e+00    6.106767e+00
  6.276904e+00    6.421000e+00
  6.289666e+00    6.291986e+00
  6.302428e+00    5.693072e+00
  6.315189e+00    6.568247e+00
  6.327951e+00    5.428747e+00
  6.340713e+00    6.982209e+00
  6.353474e+00    5.862585e+00
  6.366236e+00    6.113348e+00
  6.378998e+00    5.253155e+00